PART_ID,Trial_no,Trial_type,PDI,Stim_letter,Key_pressed,letter_choose,Rt,Corr,Stimulus Time
M20,1,training,10,↑,up,↑,0.7777281003072858,True,30
M20,2,training,10,←,right,→,0.5521329995244741,False,30
M20,3,training,10,→,left,←,1.40059470012784,False,18
M20,4,training,180,↑,up,↑,0.4881936004385352,True,15
M20,5,training,180,→,right,→,0.43026559986174107,True,15
M20,6,training,48,→,up,↑,0.8338890997692943,False,15
M20,7,training,12,←,left,←,0.4886194998398423,True,15
M20,8,training,24,←,left,←,0.41913210041821003,True,15
M20,9,experiment,108,↓,right,→,0.6872656997293234,False,15
M20,10,experiment,48,↑,down,↓,0.6759048998355865,False,15
M20,11,experiment,48,←,left,←,0.4962252005934715,True,15
M20,12,experiment,180,←,up,↑,0.4882912002503872,False,15
M20,13,experiment,72,↑,right,→,0.6791628999635577,False,15
M20,14,experiment,24,←,right,→,0.6589134996756911,False,15
M20,15,experiment,12,↑,right,→,0.7631786996498704,False,15
M20,16,experiment,156,→,right,→,0.43922049924731255,True,15
M20,17,experiment,168,←,up,↑,0.5707572000101209,False,15
M20,18,experiment,24,→,no_key,no_letter,-1.0,False,15
M20,19,experiment,120,↑,up,↑,0.49091640021651983,True,15
M20,20,experiment,72,↓,up,↑,0.7534119999036193,False,15
M20,21,experiment,132,↑,up,↑,0.5352147994562984,True,15
M20,22,experiment,132,↑,up,↑,0.4618972996249795,True,15
M20,23,experiment,168,→,right,→,0.4292518002912402,True,15
M20,24,experiment,36,→,right,→,0.4790861997753382,True,15
M20,25,experiment,24,↑,up,↑,0.6434344006702304,True,15
M20,26,experiment,36,↓,up,↑,0.6524179000407457,False,15
M20,27,experiment,12,←,right,→,0.4760328000411391,False,15
M20,28,experiment,72,←,right,→,0.5956382993608713,False,15
M20,29,experiment,60,↓,down,↓,0.531020000576973,True,15
M20,30,experiment,156,←,left,←,0.5067183002829552,True,15
M20,31,experiment,144,↑,up,↑,0.5338600007817149,True,15
M20,32,experiment,120,←,right,→,0.5548689998686314,False,15
M20,33,experiment,180,←,left,←,0.537567900493741,True,15
M20,34,experiment,84,→,right,→,0.6096280002966523,True,15
M20,35,experiment,96,↑,up,↑,0.4999072998762131,True,15
M20,36,experiment,12,→,right,→,0.7831419995054603,True,15
M20,37,experiment,60,↑,up,↑,0.5207635993137956,True,15
M20,38,experiment,180,←,right,→,0.5780592001974583,False,15
M20,39,experiment,120,→,up,↑,0.5698528997600079,False,15
M20,40,experiment,108,↑,right,→,0.6420017993077636,False,15
M20,41,experiment,84,↑,up,↑,0.48666949942708015,True,15
M20,42,experiment,60,→,right,→,0.5307113006711006,True,15
M20,43,experiment,132,↓,down,↓,0.759060699492693,True,15
M20,44,experiment,96,←,right,→,0.5654496001079679,False,15
M20,45,experiment,36,↑,right,→,0.5421470999717712,False,15
M20,46,experiment,96,↑,up,↑,0.4605062995105982,True,15
M20,47,experiment,132,↓,down,↓,0.5109614999964833,True,15
M20,48,experiment,144,↓,down,↓,0.4249259000644088,True,15
M20,49,experiment,48,→,right,→,0.6260101003572345,True,15
M20,50,experiment,156,↑,down,↓,0.6718668006360531,False,15
M20,51,experiment,168,↑,down,↓,0.49268299993127584,False,15
M20,52,experiment,60,→,right,→,0.8266879003494978,True,15
M20,53,experiment,156,↓,up,↑,0.2846181998029351,False,15
M20,54,experiment,108,→,right,→,0.5617944998666644,True,15
M20,55,experiment,108,↓,up,↑,0.6067351000383496,False,15
M20,56,experiment,144,↑,left,←,0.2177032995969057,False,15
M20,57,experiment,36,↑,up,↑,0.6839622994884849,True,15
M20,58,experiment,96,→,right,→,1.0930719003081322,True,15
M20,59,experiment,120,←,right,→,0.9180378997698426,False,15
M20,60,experiment,84,↑,up,↑,0.4945011008530855,True,15
M20,61,experiment,24,←,right,→,0.653872899711132,False,15
M20,62,experiment,48,↑,up,↑,0.5583614995703101,True,15
M20,63,experiment,12,↓,up,↑,0.9579432001337409,False,15
M20,64,experiment,168,↑,right,→,0.45966089982539415,False,15
M20,65,experiment,72,↓,up,↑,0.8254657005891204,False,15
M20,66,experiment,144,↓,left,←,0.31805380061268806,False,15
M20,67,experiment,84,↓,up,↑,1.122638899832964,False,15
M20,68,experiment,180,↑,right,→,0.85672099981457,False,15
M20,69,training,72,←,right,→,0.6611449997872114,False,16
M20,70,training,120,←,right,→,0.5606778003275394,False,16
M20,71,training,96,→,up,↑,0.6990454001352191,False,16
M20,72,training,168,↑,right,→,0.4778392007574439,False,16
M20,73,training,48,→,up,↑,1.3048644997179508,False,16
M20,74,experiment,156,→,right,→,0.5822363998740911,True,16
M20,75,experiment,132,→,up,↑,0.3681947002187371,False,16
M20,76,experiment,72,↑,right,→,0.7732627000659704,False,16
M20,77,experiment,36,→,right,→,1.254660600796342,True,16
M20,78,experiment,96,→,right,→,0.6056751003488898,True,16
M20,79,experiment,84,→,left,←,0.9052218003198504,False,16
M20,80,experiment,84,↑,up,↑,0.4359154002740979,True,16
M20,81,experiment,60,↑,up,↑,0.9267761996015906,True,16
M20,82,experiment,60,←,left,←,0.4552613999694586,True,16
M20,83,experiment,96,←,left,←,0.6882529994472861,True,16
M20,84,experiment,120,←,left,←,0.5884244004264474,True,16
M20,85,experiment,84,←,right,→,0.6444578999653459,False,16
M20,86,experiment,156,↓,up,↑,0.2508458998054266,False,16
M20,87,experiment,12,↑,right,→,1.4074262995272875,False,16
M20,88,experiment,132,→,right,→,0.5480989003553987,True,16
M20,89,experiment,144,→,right,→,0.49459080025553703,True,16
M20,90,experiment,36,↓,up,↑,1.0641807997599244,False,16
M20,91,experiment,168,↓,down,↓,0.638557099737227,True,16
M20,92,experiment,180,←,left,←,0.5104444995522499,True,16
M20,93,experiment,108,←,left,←,0.613518700003624,True,16
M20,94,experiment,168,↑,up,↑,0.6674033002927899,True,16
M20,95,experiment,96,→,left,←,0.7451329994946718,False,16
M20,96,experiment,156,↓,up,↑,0.6773669002577662,False,16
M20,97,experiment,12,↑,left,←,1.1292783003300428,False,16
M20,98,experiment,144,→,right,→,0.6837698007002473,True,16
M20,99,experiment,144,↓,right,→,0.5788695998489857,False,16
M20,100,experiment,48,↓,up,↑,0.6320311995223165,False,16
M20,101,experiment,36,↓,no_key,no_letter,-1.0,False,16
M20,102,experiment,48,↓,right,→,0.7387976003810763,False,16
M20,103,experiment,168,←,left,←,1.5360093005001545,True,16
M20,104,experiment,84,→,no_key,no_letter,-1.0,False,16
M20,105,experiment,120,↓,right,→,0.9248580997809768,False,16
M20,106,experiment,36,↑,up,↑,1.1114159002900124,True,16
M20,107,experiment,180,→,left,←,0.6620094999670982,False,16
M20,108,experiment,120,↑,right,→,0.9327859003096819,False,16
M20,109,experiment,180,↓,right,→,0.9107110993936658,False,16
M20,110,experiment,180,→,up,↑,0.5749397994950414,False,16
M20,111,experiment,72,↓,down,↓,0.6303779995068908,True,16
M20,112,experiment,12,↓,right,→,0.7486721994355321,False,16
M20,113,experiment,12,↓,right,→,1.8162150997668505,False,16
M20,114,experiment,168,↑,up,↑,0.47983350045979023,True,16
M20,115,experiment,24,↓,right,→,0.6211724998429418,False,16
M20,116,experiment,120,←,left,←,0.5828523999080062,True,16
M20,117,experiment,144,↑,left,←,0.08408260066062212,False,16
M20,118,experiment,48,↓,up,↑,1.2065334999933839,False,16
M20,119,experiment,60,→,left,←,0.4667622996494174,False,16
M20,120,experiment,96,←,left,←,0.7668914003297687,True,16
M20,121,experiment,24,→,left,←,0.23437129985541105,False,16
M20,122,experiment,60,←,left,←,1.190260499715805,True,16
M20,123,experiment,156,←,down,↓,0.1009147996082902,False,16
M20,124,experiment,48,←,up,↑,0.07080930005759001,False,16
M20,125,experiment,132,↓,up,↑,1.6404974004253745,False,16
M20,126,experiment,132,↓,up,↑,0.6866873996332288,False,16
M20,127,experiment,72,↓,down,↓,0.9001801004633307,True,16
M20,128,experiment,108,↓,down,↓,0.7113169003278017,True,16
M20,129,experiment,24,←,left,←,0.7288118004798889,True,16
M20,130,experiment,24,→,left,←,1.4443088993430138,False,16
M20,131,experiment,72,↑,up,↑,0.8547965995967388,True,16
M20,132,experiment,108,↑,right,→,0.6311998004093766,False,16
M20,133,experiment,108,↓,up,↑,0.7719789994880557,False,16
M20,134,training,60,↓,up,↑,0.9951820997521281,False,17
M20,135,training,180,→,right,→,0.7070515993982553,True,17
M20,136,training,108,↑,up,↑,0.7535180998966098,True,17
M20,137,training,108,↑,up,↑,0.5459401998668909,True,17
M20,138,training,36,↑,up,↑,0.5497093005105853,True,17
M20,139,experiment,48,→,right,→,0.9882441004738212,True,17
M20,140,experiment,156,↑,right,→,0.3515780996531248,False,17
M20,141,experiment,180,←,left,←,0.03431969974189997,True,17
M20,142,experiment,48,↓,up,↑,1.0296616991981864,False,17
M20,143,experiment,120,←,right,→,0.6341444998979568,False,17
M20,144,experiment,24,→,right,→,0.7231414001435041,True,17
M20,145,experiment,60,←,up,↑,0.9787213997915387,False,17
M20,146,experiment,180,→,left,←,1.6423849994316697,False,17
M20,147,experiment,132,←,up,↑,0.7191351996734738,False,17
M20,148,experiment,96,↑,right,→,0.03793899994343519,False,17
M20,149,experiment,24,↑,up,↑,1.4720206996425986,True,17
M20,150,experiment,168,↑,up,↑,1.0283349007368088,True,17
M20,151,experiment,24,↑,right,→,1.3109024995937943,False,17
M20,152,experiment,84,↑,no_key,no_letter,-1.0,False,17
M20,153,experiment,48,←,up,↑,0.9782600998878479,False,17
M20,154,experiment,144,←,left,←,0.47713209968060255,True,17
M20,155,experiment,60,↓,up,↑,0.678511799313128,False,17
M20,156,experiment,132,←,left,←,0.9381085000932217,True,17
M20,157,experiment,60,↑,no_key,no_letter,-1.0,False,17
M20,158,experiment,168,↑,right,→,1.8869519997388124,False,17
M20,159,experiment,12,→,up,↑,0.9237708002328873,False,17
M20,160,experiment,72,→,right,→,1.8341992003843188,True,17
M20,161,experiment,156,↓,right,→,0.16752130072563887,False,17
M20,162,experiment,108,↓,right,→,0.6956153996288776,False,17
M20,163,experiment,36,↓,right,→,1.3131171008571982,False,17
M20,164,experiment,180,→,up,↑,0.5561479004099965,False,17
M20,165,experiment,120,↑,up,↑,0.485432599671185,True,17
M20,166,experiment,48,→,right,→,0.8828116003423929,True,17
M20,167,experiment,108,↑,left,←,0.5503241000697017,False,17
M20,168,experiment,36,↓,up,↑,0.5687182005494833,False,17
M20,169,experiment,72,→,up,↑,1.0239653000608087,False,17
M20,170,experiment,84,←,right,→,1.4036814998835325,False,17
M20,171,experiment,156,←,left,←,0.996993999928236,True,17
M20,172,experiment,96,↓,up,↑,1.5012726997956634,False,17
M20,173,experiment,132,↑,up,↑,1.264105699956417,True,17
M20,174,experiment,72,←,right,→,1.3697846997529268,False,17
M20,175,experiment,84,↑,up,↑,0.9819411002099514,True,17
M20,176,experiment,120,↑,right,→,1.212649599649012,False,17
M20,177,experiment,24,→,up,↑,1.0618190001696348,False,17
M20,178,experiment,12,↓,left,←,0.853082399815321,False,17
M20,179,experiment,144,↑,down,↓,0.03407400008291006,False,17
M20,180,experiment,144,↓,left,←,0.5571886003017426,False,17
M20,181,experiment,132,↑,right,→,0.6165231000632048,False,17
M20,182,experiment,96,←,right,→,0.6764324000105262,False,17
M20,183,experiment,84,←,up,↑,0.2850648993626237,False,17
M20,184,experiment,12,↑,up,↑,1.0678401999175549,True,17
M20,185,experiment,72,→,right,→,0.74791119992733,True,17
M20,186,experiment,156,←,up,↑,0.6593840001150966,False,17
M20,187,experiment,108,↑,up,↑,0.5335446000099182,True,17
M20,188,experiment,96,↓,up,↑,0.596259799785912,False,17
M20,189,experiment,12,←,right,→,0.8829307993873954,False,17
M20,190,experiment,120,←,right,→,0.6629103003069758,False,17
M20,191,experiment,168,↑,up,↑,0.4789734994992614,True,17
M20,192,experiment,144,→,up,↑,0.7743150005117059,False,17
M20,193,experiment,60,↓,right,→,1.0684166001155972,False,17
M20,194,experiment,108,←,right,→,1.0104726999998093,False,17
M20,195,experiment,168,→,right,→,0.25093880016356707,True,17
M20,196,experiment,36,↑,up,↑,1.203508399426937,True,17
M20,197,experiment,180,↓,left,←,1.7459722002968192,False,17
M20,198,experiment,36,↓,up,↑,0.8196128001436591,False,17
